wavelength,transmission
19.999,94.52084
19.991,94.5444
19.980,94.57534
19.969,94.60575
19.961,94.62822
19.950,94.65771
19.939,94.68669
19.931,94.70808
19.921,94.73616
19.910,94.76373
19.899,94.7908
19.891,94.81078
19.880,94.83698
19.869,94.86268
19.861,94.88164
19.850,94.9065
19.839,94.93088
19.831,94.94885
19.820,94.97239
19.810,94.99546
19.799,95.01807
19.791,95.03473
19.780,95.05653
19.769,95.07788
19.761,95.09359
19.750,95.11415
19.739,95.13427
19.731,95.14907
19.720,95.16842
19.710,95.18733
19.701,95.20124
19.691,95.2194
19.680,95.23714
19.669,95.25447
19.661,95.26718
19.650,95.28378
19.639,95.29997
19.631,95.31184
19.620,95.32732
19.610,95.3424
19.601,95.35345
19.591,95.36783
19.580,95.38183
19.569,95.39544
19.561,95.4054
19.550,95.41835
19.539,95.43092
19.531,95.4401
19.520,95.45202
19.509,95.46357
19.501,95.47199
19.490,95.48291
19.480,95.49347
19.471,95.50116
19.461,95.5111
19.450,95.5207
19.439,95.52995
19.431,95.53666
19.420,95.54532
19.409,95.55363
19.401,95.55966
19.390,95.5674
19.379,95.57481
19.371,95.58016
19.360,95.58701
19.350,95.59354
19.341,95.59823
19.331,95.60422
19.320,95.60989
19.312,95.61395
19.301,95.61909
19.290,95.62393
19.279,95.62847
19.271,95.63169
19.260,95.63572
19.249,95.63946
19.241,95.64208
19.230,95.64533
19.220,95.64829
19.211,95.65033
19.201,95.65281
19.190,95.65502
19.182,95.6565
19.171,95.65824
19.160,95.65972
19.149,95.66093
19.141,95.66167
19.130,95.66244
19.119,95.66295
19.111,95.66317
19.100,95.66324
19.090,95.66307
19.081,95.66278
19.071,95.66219
19.060,95.66136
19.052,95.66058
19.041,95.65934
19.030,95.65787
19.022,95.65662
19.011,95.65475
19.000,95.65266
18.989,95.65035
18.981,95.64847
18.970,95.64578
18.959,95.64288
18.951,95.64057
18.940,95.6373
18.930,95.63383
18.921,95.63109
18.911,95.62727
18.900,95.62324
18.892,95.62009
18.881,95.61573
18.870,95.61117
18.862,95.60763
18.851,95.60274
18.840,95.59767
18.832,95.59375
18.821,95.58836
18.810,95.58279
18.799,95.57705
18.791,95.57263
18.780,95.56659
18.770,95.56038
18.761,95.55561
18.751,95.54911
18.740,95.54244
18.732,95.53734
18.721,95.5304
18.710,95.5233
18.702,95.51788
18.691,95.51051
18.680,95.50299
18.672,95.49726
18.661,95.48949
18.650,95.48157
18.642,95.47554
18.631,95.46738
18.620,95.45908
18.612,95.45277
18.601,95.44423
18.590,95.43556
18.580,95.42677
18.571,95.42009
18.561,95.41107
18.550,95.40193
18.542,95.39499
18.531,95.38564
18.520,95.37617
18.512,95.36899
18.501,95.35932
18.490,95.34953
18.482,95.34212
18.471,95.33215
18.460,95.32207
18.452,95.31443
18.441,95.30417
18.430,95.2938
18.422,95.28596
18.411,95.27542
18.400,95.26479
18.392,95.25675
18.381,95.24595
18.370,95.23506
18.360,95.22409
18.351,95.21579
18.341,95.20467
18.330,95.19345
18.322,95.18499
18.311,95.17363
18.300,95.1622
18.292,95.15357
18.281,95.142
18.270,95.13036
18.262,95.12158
18.251,95.10981
18.240,95.09797
18.232,95.08905
18.221,95.0771
18.210,95.06508
18.202,95.05602
18.191,95.0439
18.180,95.03171
18.172,95.02253
18.161,95.01024
18.150,94.9979
18.142,94.98861
18.131,94.97617
18.120,94.96368
18.112,94.95428
18.101,94.94171
18.091,94.92909
18.082,94.9196
18.072,94.9069
18.061,94.89416
18.050,94.88138
18.042,94.87177
18.031,94.85892
18.020,94.84604
18.012,94.83635
18.001,94.82341
17.990,94.81043
17.982,94.80067
17.971,94.78764
17.960,94.77458
17.952,94.76477
17.941,94.75166
17.930,94.73853
17.922,94.72866
17.911,94.71549
17.900,94.7023
17.892,94.69239
17.881,94.67917
17.870,94.66592
17.862,94.65598
17.851,94.64271
17.840,94.62942
17.832,94.61945
17.821,94.60615
17.810,94.59283
17.802,94.58284
17.791,94.56951
17.780,94.55617
17.772,94.54617
17.761,94.53282
17.751,94.51947
17.742,94.50946
17.731,94.49611
17.721,94.48276
17.712,94.47275
17.702,94.4594
17.691,94.44605
17.682,94.43605
17.672,94.42271
17.661,94.40938
17.653,94.39939
17.642,94.38607
17.631,94.37277
17.623,94.36279
17.612,94.34951
17.601,94.33623
17.593,94.32628
17.582,94.31303
17.571,94.2998
17.563,94.28988
17.552,94.27668
17.541,94.26349
17.533,94.25361
17.522,94.24046
17.511,94.22733
17.500,94.21422
17.492,94.2044
17.481,94.19133
17.470,94.17829
17.462,94.16852
17.451,94.15552
17.440,94.14255
17.432,94.13284
17.421,94.11992
17.410,94.10703
17.402,94.09738
17.391,94.08454
17.380,94.07173
17.372,94.06215
17.361,94.04941
17.350,94.03669
17.342,94.02718
17.331,94.01453
17.320,94.00192
17.312,93.99249
17.301,93.97994
17.290,93.96744
17.282,93.95808
17.271,93.94565
17.260,93.93325
17.252,93.92399
17.241,93.91167
17.230,93.89939
17.222,93.89021
17.211,93.87801
17.200,93.86586
17.192,93.85678
17.181,93.84471
17.170,93.83268
17.162,93.8237
17.151,93.81176
17.140,93.79987
17.132,93.79099
17.121,93.77919
17.110,93.76744
17.102,93.75866
17.091,93.747
17.080,93.7354
17.072,93.72673
17.061,93.76522
17.050,93.75377
17.042,93.74521
17.031,93.78386
17.020,93.77256
17.012,93.76412
17.001,93.75292
16.990,93.79178
16.982,93.78346
16.971,93.77242
16.960,93.76144
16.952,93.80325
16.941,93.79238
16.930,93.78157
16.922,93.7735
16.911,93.81279
16.900,93.80215
16.892,93.79422
16.881,93.83369
16.873,93.82583
16.862,93.81542
16.851,93.80506
16.843,93.79734
16.832,93.83711
16.821,93.82694
16.813,93.81935
16.802,93.8093
16.791,93.84931
16.783,93.84187
16.772,93.832
16.761,93.8222
16.753,93.8649
16.742,93.85522
16.731,93.84562
16.723,93.83846
16.712,93.82897
16.701,93.81956
16.693,93.81255
16.682,93.80326
16.671,93.79404
16.662,93.78633
16.652,93.7778
16.642,93.76974
16.632,93.76132
16.622,93.75338
16.612,93.74548
16.602,93.73723
16.592,93.72945
16.582,93.72132
16.572,93.71365
16.562,93.70604
16.552,93.69808
16.542,93.69058
16.532,93.68314
16.522,93.67536
16.512,93.66804
16.502,93.66077
16.492,93.65355
16.482,93.64602
16.472,93.63893
16.462,93.6319
16.452,93.62492
16.442,93.618
16.432,93.61079
16.422,93.65399
16.412,93.64726
16.402,93.64058
16.392,93.63397
16.382,93.62742
16.372,93.62093
16.362,93.6645
16.352,93.65813
16.342,93.65182
16.332,93.64525
16.322,93.63907
16.312,93.63296
16.302,93.67691
16.292,93.67123
16.282,93.6653
16.272,93.65944
16.262,93.65364
16.252,93.6479
16.242,93.69223
16.232,93.68663
16.222,93.68108
16.212,93.67561
16.202,93.6702
16.192,93.66513
16.182,93.65985
16.172,93.70463
16.162,93.69948
16.152,93.6944
16.142,93.68965
16.132,93.68469
16.122,93.67981
16.112,93.67499
16.102,93.67048
16.092,93.7158
16.082,93.71118
16.072,93.70663
16.062,93.70238
16.052,93.69796
16.042,93.69384
16.032,93.68955
16.022,93.68534
16.012,93.68141
16.002,93.67732
15.992,93.67331
15.982,93.66957
15.972,93.6657
15.962,93.66209
15.952,93.65835
15.942,93.65487
15.932,93.65126
15.922,93.64791
15.912,93.64445
15.902,93.64122
15.892,93.63789
15.882,93.6348
15.872,93.63161
15.862,93.62865
15.853,93.62575
15.842,93.62277
15.832,93.62
15.822,93.61715
15.812,93.61452
15.802,93.61195
15.792,93.6093
15.782,93.60687
15.772,93.60449
15.762,93.60206
15.752,93.59982
15.742,93.59764
15.733,93.59552
15.722,93.59336
15.712,93.59138
15.702,93.58947
15.693,93.58762
15.682,93.58573
15.672,93.58401
15.662,93.58236
15.652,93.58077
15.643,93.57924
15.633,93.57778
15.622,93.57631
15.612,93.57499
15.602,93.57372
15.592,93.57252
15.582,93.57139
15.573,93.57032
15.563,93.56932
15.553,93.56838
15.543,93.56751
15.533,93.5667
15.523,93.56595
15.513,93.56527
15.503,93.56465
15.493,93.5641
15.483,93.56361
15.473,93.56319
15.463,93.56283
15.453,93.56254
15.443,93.56231
15.433,93.56215
15.423,93.56204
15.413,93.56201
15.402,93.56204
15.392,93.56213
15.382,93.56228
15.373,93.56249
15.363,93.56277
15.353,93.56311
15.343,93.56352
15.332,93.56399
15.322,93.56453
15.313,93.56509
15.303,93.56575
15.293,93.56647
15.282,93.56726
15.273,93.56806
15.263,93.56896
15.253,93.56993
15.242,93.57097
15.233,93.572
15.223,93.57316
15.213,93.57438
15.202,93.57566
15.193,93.57692
15.183,93.57833
15.172,93.57979
15.163,93.58123
15.153,93.58282
15.143,93.58437
15.133,93.58607
15.123,93.58784
15.113,93.58956
15.103,93.59145
15.093,93.59329
15.083,93.59529
15.072,93.59736
15.063,93.59936
15.053,93.60155
15.043,93.60366
15.033,93.60596
15.023,93.60819
15.013,93.61061
15.003,93.61294
14.993,93.61548
14.983,93.61792
14.973,93.62057
14.963,93.62313
14.953,93.62573
14.943,93.62855
14.933,93.63127
14.923,93.6342
14.913,93.63702
14.903,93.6399
14.893,93.643
14.883,93.64598
14.873,93.64919
14.863,93.65227
14.853,93.65541
14.843,93.65879
14.833,93.66203
14.823,93.66532
14.813,93.66886
14.803,93.67225
14.793,93.67569
14.783,93.67919
14.773,93.68294
14.763,93.68654
14.753,93.69018
14.743,93.69387
14.733,93.69784
14.723,93.70163
14.713,93.70547
14.703,93.70936
14.693,93.7133
14.683,93.71752
14.673,93.67155
14.663,93.67563
14.653,93.67976
14.643,93.68394
14.633,93.68816
14.623,93.69268
14.613,93.697
14.603,93.70136
14.593,93.70577
14.583,93.66022
14.573,93.66472
14.563,93.66927
14.553,93.67386
14.543,93.67849
14.533,93.68317
14.523,93.68789
14.513,93.69266
14.503,93.64747
14.493,93.65232
14.483,93.65721
14.473,93.66215
14.463,93.66713
14.453,93.67216
14.443,93.67722
14.433,93.63233
14.423,93.63748
14.413,93.64267
14.403,93.6479
14.393,93.65318
14.383,93.65849
14.373,93.66384
14.363,93.61924
14.353,93.62467
14.343,93.63014
14.333,93.63566
14.323,93.64088
14.313,93.64647
14.303,93.60209
14.293,93.60776
14.283,93.61346
14.273,93.6192
14.263,93.62464
14.253,93.63045
14.243,93.6363
14.233,93.64218
14.223,93.64811
14.213,93.65371
14.203,93.65971
14.193,93.66573
14.183,93.67179
14.174,93.67753
14.163,93.68366
14.153,93.68983
14.143,93.69602
14.133,93.70189
14.123,93.70815
14.113,93.71445
14.104,93.7204
14.093,93.72676
14.083,93.73316
14.074,93.7392
14.063,93.74566
14.053,93.75214
14.044,93.75827
14.033,93.76482
14.023,93.7714
14.014,93.77761
14.003,93.78425
13.993,93.79091
13.983,93.79721
13.973,93.80393
13.964,93.81028
13.953,93.81706
13.944,93.82346
13.933,93.83029
13.923,93.83714
13.913,93.84362
13.903,93.80053
13.893,93.80706
13.883,93.81402
13.874,93.82059
13.863,93.82761
13.854,93.78423
13.843,93.79129
13.834,93.79795
13.823,93.80506
13.813,93.81177
13.803,93.76892
13.793,93.77567
13.784,93.78245
13.773,93.78967
13.764,93.79648
13.753,93.75374
13.744,93.7606
13.733,93.7679
13.723,93.77479
13.714,93.78171
13.703,93.73907
13.694,93.74602
13.684,93.75298
13.673,93.76041
13.664,93.76741
13.653,93.72486
13.643,93.7319
13.634,93.73895
13.624,93.74602
13.613,93.75354
13.604,93.71064
13.594,93.71776
13.583,93.72533
13.574,93.73247
13.564,93.68963
13.553,93.69725
13.543,93.70444
13.534,93.71163
13.524,93.71884
13.513,93.67652
13.504,93.68376
13.494,93.69101
13.484,93.69827
13.473,93.70599
13.463,93.71328
13.454,93.72057
13.444,93.72787
13.434,93.73519
13.423,93.74297
13.413,93.75031
13.404,93.75765
13.394,93.765
13.384,93.77236
13.374,93.77973
13.364,93.78711
13.353,93.79496
13.344,93.80235
13.334,93.80975
13.324,93.81716
13.314,93.82458
13.304,93.832
13.294,93.83942
13.284,93.84685
13.274,93.85429
13.263,93.8622
13.253,93.86965
13.244,93.8771
13.234,93.88456
13.224,93.89202
13.214,93.89948
13.204,93.90695
13.194,93.91442
13.184,93.92189
13.174,93.92936
13.164,93.93684
13.154,93.94432
13.144,93.9518
13.134,93.95928
13.124,93.96677
13.114,93.97425
13.104,93.98173
13.094,93.98922
13.084,93.9967
13.074,94.00418
13.064,94.01166
13.054,94.01914
13.044,94.02616
13.034,94.03363
13.024,94.04111
13.014,94.04858
13.004,94.05605
12.994,94.06352
12.984,94.07098
12.974,94.07845
12.964,94.0859
12.954,94.09335
12.944,94.10034
12.934,94.10778
12.924,94.11522
12.914,94.12266
12.904,94.13008
12.894,94.13751
12.884,94.14446
12.874,94.15187
12.864,94.15927
12.854,94.16667
12.844,94.17406
12.834,94.18144
12.824,94.18835
12.814,94.19572
12.804,94.20308
12.794,94.21043
12.784,94.21731
12.774,94.22464
12.764,94.23196
12.754,94.23928
12.744,94.24612
12.734,94.25341
12.724,94.2607
12.714,94.26797
12.704,94.27477
12.694,94.28202
12.684,94.28926
12.674,94.29603
12.664,94.30325
12.654,94.31045
12.644,94.31763
12.634,94.32436
12.624,94.33152
12.614,94.33867
12.604,94.34536
12.594,94.35248
12.584,94.35914
12.574,94.36624
12.564,94.37331
12.554,94.37993
12.544,94.38698
12.534,94.39401
12.524,94.40059
12.514,94.40759
12.504,94.41414
12.494,94.42111
12.484,94.42806
12.474,94.43456
12.464,94.44148
12.454,94.44794
12.444,94.45482
12.435,94.46126
12.424,94.46811
12.414,94.47493
12.404,94.48131
12.394,94.4881
12.384,94.49445
12.374,94.5012
12.364,94.50751
12.354,94.51422
12.344,94.5205
12.334,94.52717
12.324,94.5334
12.314,94.54003
12.304,94.54623
12.294,94.55281
12.284,94.55897
12.274,94.56551
12.264,94.57163
12.254,94.57813
12.244,94.5842
12.235,94.59025
12.224,94.59669
12.215,94.6027
12.204,94.60908
12.194,94.61505
12.184,94.62139
12.174,94.62731
12.165,94.63321
12.154,94.63947
12.145,94.64533
12.134,94.65154
12.124,94.65735
12.115,94.66313
12.104,94.66928
12.095,94.67501
12.084,94.6811
12.074,94.68679
12.065,94.69245
12.054,94.69846
12.044,94.70407
12.035,94.70966
12.024,94.7156
12.014,94.72113
12.005,94.72664
11.994,94.73249
11.984,94.73795
11.975,94.74339
11.964,94.74916
11.954,94.75454
11.945,94.75989
11.935,94.76522
11.924,94.77087
11.914,94.77615
11.905,94.78139
11.894,94.78696
11.884,94.79215
11.875,94.79731
11.865,94.80245
11.854,94.8079
11.844,94.81298
11.835,94.81803
11.825,94.82305
11.815,94.82805
11.804,94.83334
11.794,94.83828
11.785,94.84319
11.775,94.84807
11.764,94.85324
11.754,94.85806
11.745,94.86285
11.735,94.86761
11.725,94.87234
11.715,94.87704
11.704,94.88202
11.694,94.88666
11.685,94.89126
11.675,94.89584
11.665,94.90039
11.655,94.90491
11.644,94.90969
11.634,94.91415
11.625,94.91857
11.615,94.92296
11.605,94.92732
11.595,94.93165
11.585,94.93595
11.575,94.94021
11.565,94.94445
11.554,94.94893
11.544,94.9531
11.535,94.95724
11.525,94.96134
11.515,94.96541
11.505,94.96945
11.495,94.97346
11.485,94.97743
11.475,94.98137
11.465,94.98528
11.455,94.98916
11.445,94.993
11.435,94.99681
11.425,95.00059
11.415,95.00433
11.405,95.00804
11.395,95.01171
11.385,95.01536
11.375,95.01897
11.365,95.02254
11.355,95.02608
11.345,95.02959
11.335,95.03306
11.325,95.0365
11.315,95.0399
11.305,95.04327
11.295,95.04661
11.285,95.04991
11.275,95.05318
11.265,95.05641
11.255,95.0596
11.245,95.06277
11.235,95.06589
11.225,95.06898
11.215,95.07204
11.205,95.07506
11.195,95.07805
11.185,95.081
11.175,95.08392
11.165,95.0868
11.155,95.08964
11.145,95.09227
11.135,95.09505
11.125,95.09779
11.115,95.10049
11.105,95.10316
11.095,95.1058
11.085,95.1084
11.075,95.11096
11.065,95.11349
11.055,95.11581
11.045,95.11827
11.035,95.12069
11.025,95.12308
11.015,95.12543
11.005,95.12774
10.995,95.12987
10.985,95.13211
10.975,95.13432
10.965,95.13649
10.955,95.13863
10.945,95.14072
10.935,95.14265
10.925,95.14468
10.915,95.14667
10.905,95.14863
10.895,95.15055
10.885,95.15231
10.875,95.15416
10.865,95.15597
10.855,95.15775
10.845,95.15949
10.835,95.16108
10.825,95.16275
10.815,95.16439
10.805,95.16598
10.795,95.16744
10.785,95.16897
10.775,95.17046
10.765,95.17192
10.755,95.17324
10.745,95.17463
10.735,95.17598
10.725,95.1772
10.715,95.17848
10.705,95.17972
10.695,95.18093
10.685,95.18202
10.675,95.18316
10.665,95.18426
10.655,95.18525
10.645,95.18628
10.635,95.18728
10.626,95.18818
10.615,95.1891
10.605,95.18999
10.595,95.19084
10.585,95.19161
10.575,95.19239
10.566,95.19309
10.555,95.19381
10.545,95.19449
10.536,95.19509
10.525,95.1957
10.515,95.19627
10.506,95.19678
10.495,95.19729
10.485,95.19776
10.475,95.19817
10.465,95.19857
10.456,95.19891
10.445,95.19925
10.435,95.19955
10.426,95.1998
10.415,95.20003
10.406,95.20022
10.395,95.20039
10.385,95.20052
10.375,95.20061
10.365,95.20067
10.356,95.2007
10.345,95.2007
10.336,95.20067
10.325,95.2006
10.315,95.2005
10.306,95.20038
10.295,95.20021
10.286,95.20003
10.275,95.1998
10.266,95.19955
10.255,95.19925
10.246,95.19895
10.235,95.19859
10.226,95.19822
10.215,95.1978
10.206,95.19737
10.195,95.19688
10.185,95.19636
10.175,95.19585
10.165,95.19527
10.155,95.19469
10.145,95.19405
10.135,95.19342
10.126,95.19276
10.115,95.19202
10.106,95.19131
10.095,95.19051
10.086,95.18974
10.075,95.18888
10.066,95.18805
10.055,95.18713
10.046,95.18625
10.035,95.18527
10.026,95.18433
10.015,95.18329
10.006,95.1823
9.996,95.18128
9.985,95.18016
9.976,95.17908
9.965,95.1779
9.956,95.17677
9.945,95.17554
9.936,95.17436
9.926,95.17315
9.915,95.17183
9.906,95.17057
9.895,95.1692
9.886,95.16789
9.876,95.16656
9.865,95.1651
9.856,95.16372
9.845,95.16221
9.836,95.16077
9.826,95.15932
9.815,95.15773
9.806,95.15622
9.796,95.15469
9.786,95.15303
9.776,95.15145
9.766,95.14985
9.756,95.14811
9.746,95.14647
9.735,95.14468
9.726,95.14299
9.716,95.14127
9.705,95.13941
9.696,95.13765
9.686,95.13587
9.675,95.13394
9.666,95.13211
9.656,95.13027
9.646,95.1284
9.636,95.12638
9.626,95.12447
9.616,95.12254
9.606,95.12045
9.596,95.11848
9.586,95.1165
9.575,95.11434
9.566,95.11231
9.556,95.11027
9.546,95.1082
9.536,95.10596
9.526,95.10386
9.516,95.10173
9.506,95.09959
9.496,95.09728
9.486,95.0951
9.476,95.0929
9.466,95.09053
9.456,95.0883
9.446,95.08605
9.436,95.08379
9.426,95.08151
9.416,95.07905
9.406,95.07673
9.396,95.0744
9.386,95.07206
9.376,95.06953
9.366,95.06715
9.356,95.06476
9.346,95.06235
9.336,95.05993
9.326,95.05732
9.316,95.05487
9.306,95.05241
9.296,95.04993
9.286,95.04744
9.276,95.04476
9.266,95.04224
9.256,95.03972
9.246,95.03717
9.236,95.03462
9.226,95.03187
9.216,95.02929
9.206,95.0267
9.196,95.0241
9.186,95.02149
9.176,95.01887
9.166,95.01605
9.156,95.01341
9.146,95.01075
9.136,95.00809
9.126,95.00542
9.116,95.00274
9.106,95.00005
9.096,94.99716
9.086,94.99445
9.076,94.99173
9.066,94.98901
9.056,94.98628
9.046,94.98354
9.036,94.98079
9.026,94.97804
9.016,94.97528
9.006,94.97232
8.996,94.96954
8.986,94.96677
8.976,94.96398
8.966,94.96119
8.956,94.9584
8.946,94.9556
8.936,94.9528
8.926,94.94999
8.916,94.94718
8.906,94.94436
8.897,94.94155
8.886,94.93852
8.876,94.9357
8.866,94.93287
8.856,94.93004
8.846,94.92721
8.836,94.92438
8.826,94.92154
8.816,94.91871
8.806,94.91587
8.796,94.91303
8.786,94.9102
8.776,94.90736
8.766,94.90452
8.756,94.90168
8.746,94.89885
8.736,94.89601
8.726,94.89318
8.716,94.89035
8.706,94.88752
8.696,94.88469
8.686,94.88186
8.676,94.87904
8.667,94.87622
8.657,94.87341
8.647,94.87059
8.637,94.86779
8.627,94.86498
8.617,94.86218
8.606,94.85939
8.596,94.8566
8.586,94.85382
8.576,94.85104
8.566,94.84827
8.556,94.8455
8.546,94.84274
8.536,94.83999
8.526,94.83724
8.516,94.83451
8.506,94.83178
8.496,94.82906
8.486,94.82634
8.476,94.82364
8.466,94.82095
8.456,94.81826
8.446,94.81558
8.436,94.81292
8.427,94.81045
8.417,94.80781
8.407,94.80517
8.397,94.80255
8.387,94.79994
8.377,94.79734
8.366,94.79475
8.356,94.79217
8.346,94.78961
8.336,94.78706
8.326,94.78453
8.316,94.782
8.307,94.77967
8.297,94.77718
8.287,94.7747
8.277,94.77223
8.267,94.76978
8.256,94.76735
8.246,94.76493
8.236,94.76252
8.226,94.76014
8.217,94.75794
8.207,94.75558
8.197,94.75325
8.187,94.75093
8.177,94.74863
8.166,94.74635
8.156,94.74408
8.147,94.742
8.137,94.73977
8.127,94.73757
8.117,94.73538
8.107,94.73321
8.096,94.73107
8.086,94.72894
8.077,94.72699
8.067,94.7249
8.057,94.72284
8.047,94.7208
8.036,94.71878
8.026,94.71679
8.017,94.71496
8.007,94.71301
7.997,94.71108
7.987,94.70918
7.976,94.7073
7.967,94.70558
7.957,94.70375
7.947,94.70194
7.937,94.70016
7.927,94.69841
7.916,94.69668
7.907,94.6951
7.897,94.69343
7.887,94.69178
7.877,94.69016
7.867,94.68868
7.857,94.68711
7.847,94.68557
7.837,94.68406
7.826,94.68258
7.817,94.68123
7.807,94.67981
7.797,94.67841
7.787,94.67705
7.777,94.67581
7.767,94.6745
7.757,94.67323
7.747,94.67199
7.737,94.67086
7.727,94.66968
7.717,94.66853
7.707,94.66742
7.697,94.66641
7.687,94.66536
7.677,94.66434
7.667,94.66336
7.657,94.66248
7.647,94.66156
7.637,94.66067
7.627,94.65983
7.617,94.65907
7.607,94.65829
7.597,94.65755
7.587,94.65689
7.577,94.65622
7.567,94.65558
7.557,94.65498
7.547,94.65446
7.537,94.65393
7.527,94.65344
7.517,94.65302
7.507,94.65261
7.497,94.65223
7.487,94.65192
7.477,94.65162
7.467,94.65136
7.457,94.65114
7.447,94.65098
7.437,94.65083
7.427,94.65073
7.417,94.65068
7.407,94.65066
7.397,94.65068
7.387,94.65073
7.377,94.65084
7.367,94.65098
7.357,94.65115
7.347,94.65138
7.337,94.65165
7.327,94.65194
7.317,94.6523
7.307,94.6527
7.297,94.65311
7.287,94.6536
7.277,94.65413
7.267,94.65466
7.257,94.65528
7.247,94.6559
7.237,94.6566
7.227,94.65736
7.217,94.6581
7.207,94.65894
7.197,94.65983
7.187,94.6607
7.177,94.66168
7.167,94.66264
7.157,94.66371
7.147,94.66484
7.137,94.66592
7.127,94.66714
7.117,94.66841
7.107,94.66963
7.097,94.67099
7.087,94.6723
7.077,94.67375
7.067,94.67526
7.057,94.67671
7.047,94.67831
7.037,94.67985
7.027,94.68155
7.017,94.68331
7.007,94.68498
6.997,94.68684
6.987,94.68861
6.977,94.69056
6.968,94.69243
6.957,94.69448
6.947,94.69659
6.937,94.6986
6.927,94.70081
6.917,94.70292
6.907,94.70523
6.898,94.70743
6.887,94.70985
6.877,94.71232
6.867,94.71467
6.857,94.71725
6.847,94.7197
6.837,94.72238
6.828,94.72492
6.817,94.72772
6.808,94.73036
6.797,94.73326
6.788,94.736
6.777,94.73901
6.767,94.74208
6.757,94.74497
6.747,94.74815
6.737,94.75114
6.727,94.75443
6.717,94.75753
6.707,94.76092
6.698,94.76412
6.687,94.76763
6.678,94.77093
6.667,94.77455
6.658,94.77796
6.647,94.78169
6.638,94.7852
6.627,94.78904
6.618,94.79266
6.607,94.79662
6.598,94.80034
6.587,94.80441
6.578,94.80824
6.567,94.81242
6.558,94.81636
6.547,94.82066
6.538,94.8247
6.527,94.82911
6.518,94.83326
6.507,94.83779
6.498,94.84204
6.487,94.84669
6.478,94.85105
6.467,94.85581
6.458,94.86028
6.447,94.86516
6.438,94.86974
6.427,94.87473
6.418,94.87942
6.408,94.88417
6.397,94.88933
6.388,94.89418
6.377,94.89947
6.368,94.90443
6.357,94.90983
6.348,94.9149
6.337,94.92042
6.328,94.9256
6.317,94.93123
6.308,94.93652
6.298,94.94187
6.288,94.94768
6.278,94.95313
6.267,94.95906
6.258,94.96462
6.247,94.97067
6.238,94.97635
6.228,94.98207
6.218,94.9883
6.208,94.99413
6.197,95.00047
6.188,95.00642
6.177,95.01288
6.168,95.01894
6.158,95.02505
6.148,95.03168
6.138,95.0379
6.127,95.04466
6.118,95.05099
6.108,95.05737
6.098,95.0643
6.088,95.07079
6.078,95.07784
6.068,95.08444
6.057,95.09161
6.048,95.09832
6.038,95.10508
6.028,95.11242
6.018,95.11929
6.008,95.12622
5.998,95.13373
5.988,95.14076
5.978,95.14839
5.968,95.15553
5.958,95.16273
5.948,95.17053
5.938,95.17783
5.927,95.18575
5.918,95.19316
5.908,95.20062
5.898,95.20871
5.888,95.21627
5.878,95.22389
5.868,95.23215
5.858,95.23987
5.847,95.24824
5.838,95.25607
5.828,95.26395
5.818,95.27249
5.808,95.28047
5.798,95.28851
5.788,95.29721
5.778,95.30535
5.768,95.31354
5.758,95.32241
5.748,95.3307
5.738,95.33903
5.728,95.34807
5.718,95.35651
5.708,95.365
5.698,95.37419
5.688,95.38278
5.678,95.39142
5.668,95.40077
5.658,95.40951
5.648,95.41829
5.638,95.4278
5.628,95.43668
5.618,95.44561
5.608,95.45527
5.598,95.4643
5.588,95.47336
5.578,95.48318
5.568,95.49235
5.558,95.50156
5.548,95.51152
5.538,95.52083
5.528,95.53017
5.518,95.54029
5.508,95.54973
5.498,95.55921
5.488,95.56874
5.478,95.57904
5.468,95.58866
5.458,95.59831
5.448,95.60876
5.438,95.6185
5.428,95.62829
5.418,95.63888
5.408,95.64875
5.398,95.65866
5.388,95.66861
5.378,95.67937
5.368,95.6894
5.358,95.69948
5.348,95.71037
5.338,95.72052
5.328,95.73071
5.318,95.74094
5.308,95.752
5.298,95.76231
5.288,95.77265
5.279,95.78303
5.268,95.79424
5.258,95.8047
5.248,95.81518
5.238,95.82652
5.228,95.83707
5.218,95.84767
5.208,95.85829
5.198,95.86977
5.188,95.88046
5.178,95.89119
5.169,95.90194
5.158,95.91356
5.148,95.92438
5.138,95.93523
5.129,95.94611
5.118,95.95786
5.108,95.9688
5.098,95.97976
5.089,95.99076
5.078,96.00263
5.068,96.01368
5.058,96.02475
5.049,96.03585
5.038,96.04783
5.028,96.05899
5.018,96.07016
5.009,96.08136
4.998,96.09312
4.988,96.10458
4.978,96.1158
4.968,96.12733
4.958,96.13888
4.948,96.15047
4.938,96.16209
4.928,96.17347
4.918,96.18515
4.908,96.19659
4.898,96.20833
4.889,96.21983
4.878,96.23162
4.868,96.24317
4.858,96.25502
4.848,96.26662
4.838,96.27824
4.829,96.28989
4.818,96.30184
4.808,96.31353
4.798,96.32524
4.788,96.33697
4.778,96.34873
4.768,96.3605
4.758,96.37229
4.749,96.38382
4.739,96.39564
4.729,96.40748
4.718,96.41934
4.709,96.43092
4.699,96.44281
4.688,96.4547
4.679,96.46633
4.668,96.47825
4.659,96.48989
4.648,96.50183
4.639,96.5135
4.628,96.52545
4.619,96.53713
4.609,96.54881
4.599,96.5605
4.588,96.57247
4.579,96.58417
4.569,96.59586
4.559,96.60756
4.549,96.61926
4.539,96.63096
4.529,96.64265
4.519,96.65434
4.509,96.66603
4.499,96.67771
4.489,96.68939
4.479,96.70078
4.469,96.71244
4.459,96.72409
4.449,96.73574
4.439,96.74709
4.429,96.75871
4.419,96.77004
4.409,96.78163
4.399,96.79293
4.389,96.80449
4.379,96.81576
4.369,96.82728
4.359,96.83851
4.349,96.84972
4.339,96.86118
4.329,96.87235
4.319,96.88348
4.309,96.8946
4.299,96.90569
4.289,96.91703
4.279,96.92806
4.269,96.93906
4.259,96.95003
4.249,96.96098
4.239,96.97188
4.229,96.98276
4.219,96.99332
4.209,97.00412
4.199,97.01489
4.189,97.02561
4.179,97.03629
4.169,97.04667
4.159,97.05726
4.149,97.06782
4.139,97.07806
4.129,97.08852
4.119,97.09893
4.109,97.10903
4.099,97.11934
4.089,97.12934
4.079,97.13928
4.069,97.14943
4.059,97.15926
4.049,97.16929
4.039,97.17901
4.029,97.18868
4.019,97.19828
4.009,97.20806
3.999,97.21753
3.989,97.22694
3.979,97.23628
3.969,97.24555
3.959,97.25475
3.949,97.26388
3.939,97.27317
3.929,97.28215
3.919,97.29082
3.909,97.29965
3.899,97.3084
3.889,97.31707
3.879,97.32565
3.869,97.33415
3.859,97.34256
3.849,97.35068
3.839,97.35891
3.829,97.36706
3.819,97.37511
3.809,97.38287
3.799,97.39074
3.789,97.3985
3.779,97.40597
3.769,97.41354
3.759,97.42081
3.749,97.42817
3.739,97.43524
3.729,97.44238
3.719,97.44924
3.709,97.45616
3.699,97.4628
3.689,97.46932
3.679,97.4759
3.669,97.48219
3.659,97.48837
3.649,97.49443
3.639,97.50052
3.629,97.50633
3.619,97.51202
3.609,97.51758
3.599,97.52302
3.589,97.52832
3.579,97.53363
3.569,97.53866
3.559,97.54356
3.549,97.54831
3.539,97.55293
3.529,97.55741
3.519,97.56174
3.509,97.56582
3.499,97.56986
3.489,97.57374
3.479,97.57748
3.469,97.58106
3.459,97.58449
3.449,97.58767
3.439,97.59077
3.429,97.59372
3.419,97.59649
3.409,97.59904
3.399,97.60148
3.389,97.60375
3.379,97.60579
3.369,97.60771
3.359,97.60941
3.349,97.61097
3.339,97.61235
3.329,97.61352
3.319,97.61453
3.309,97.61532
3.299,97.61594
3.289,97.61638
3.279,97.61661
3.269,97.61665
3.259,97.6165
3.249,97.61614
3.239,97.61558
3.229,97.61482
3.219,97.61386
3.209,97.61267
3.199,97.61129
3.189,97.6097
3.179,97.6079
3.169,97.60589
3.159,97.60359
3.149,97.60113
3.139,97.59845
3.129,97.59554
3.119,97.59241
3.109,97.58904
3.099,97.58544
3.089,97.58161
3.079,97.57754
3.069,97.57322
3.059,97.56867
3.049,97.56386
3.039,97.55881
3.029,97.5535
3.019,97.54794
3.009,97.54213
3.000,97.53622
2.990,97.52989
2.980,97.52329
2.969,97.51642
2.959,97.50928
2.949,97.50187
2.940,97.49439
2.929,97.48643
2.919,97.47819
2.910,97.46989
2.900,97.46108
2.889,97.45198
2.880,97.44284
2.870,97.43315
2.859,97.42316
2.850,97.41315
2.839,97.40257
2.830,97.39196
2.820,97.38076
2.810,97.36956
2.800,97.35773
2.790,97.34591
2.780,97.33344
2.770,97.32099
2.760,97.30788
2.750,97.29479
2.739,97.28101
2.730,97.26727
2.720,97.25321
2.710,97.23841
2.700,97.22368
2.690,97.20861
2.680,97.19276
2.670,97.17701
2.660,97.1609
2.650,97.14399
2.640,97.12718
2.630,97.11001
2.620,97.09248
2.610,97.0746
2.600,97.41319
2.590,97.96245
2.580,97.53075
2.570,97.60982
2.560,97.68489
2.550,97.72349
2.540,97.7285
2.530,97.83036
2.520,97.86099
2.510,97.78228
2.500,97.89036
2.490,97.95155
2.480,97.87397
2.470,97.7617
2.460,97.94372
2.450,97.74781
2.440,97.762
2.430,97.66671
2.420,97.76758
2.410,97.57246
2.400,97.65379
2.390,97.57335
2.380,97.66984
2.370,97.57553
2.360,97.52902
2.350,97.50364
2.340,97.62068
2.330,97.64533
2.320,97.66509
2.310,97.73465
2.300,97.66901
2.290,97.56924
2.280,97.55133
2.270,97.46848
2.260,97.4457
2.250,97.38536
2.240,97.28256
2.230,97.32427
2.220,97.30809
2.210,97.303
2.200,97.31654
2.190,97.33033
2.180,97.33822
2.170,97.29768
2.160,97.32928
2.150,97.39248
2.140,97.44084
2.130,97.42631
2.120,97.43602
2.110,97.49434
2.100,97.51705
2.090,97.53966
2.080,97.49149
2.070,97.47835
2.060,97.43348
2.050,97.3972
2.040,97.41255
2.030,97.41509
2.020,97.33322
2.010,97.31077
2.000,97.29006
1.990,97.33803
1.980,97.29616
1.970,97.28964
1.960,97.30797
1.950,97.34998
1.940,97.33557
1.930,97.27047
1.920,97.21322
1.910,97.17237
1.900,97.08587
1.890,97.04198
1.880,97.06304
1.870,96.97801
1.860,96.9847
1.850,97.02648
1.840,97.00348
1.830,97.0206
1.820,97.03133
1.810,97.03694
1.800,97.05069
1.790,97.10179
1.780,97.09777
1.770,97.05476
1.760,97.05152
1.750,97.02058
1.740,96.96898
1.730,96.95895
1.720,96.936
1.710,96.94678
1.700,96.92718
1.690,96.89125
1.680,96.81025
1.670,96.76778
1.660,96.72856
1.650,96.68686
1.640,96.65591
1.630,96.62972
1.620,96.63002
1.610,96.62198
1.600,96.6184
1.590,96.61616
1.580,96.59336
1.570,96.58602
1.560,96.56204
1.550,96.52082
1.540,96.47906
1.530,96.42727
1.520,96.41366
1.510,96.41517
1.500,96.40653
1.490,96.39732
1.480,96.34806
1.470,96.27059
1.460,96.23754
1.450,96.18373
1.440,96.15371
1.430,96.13465
1.420,96.11516
1.410,96.08721
1.400,96.0617
1.390,96.01965
1.380,95.93556
1.370,95.92481
1.360,95.79235
1.350,95.71852
1.340,95.68641
1.330,95.65476
1.320,95.61823
1.310,95.56487
1.300,95.50566
1.290,95.4456
1.280,95.37954
1.270,95.31375
1.260,95.24786
1.250,95.19338
1.240,95.10599
1.230,94.99305
1.220,94.93246
1.210,94.90032
1.200,94.7934
1.190,94.65098
1.180,94.53627
1.170,94.43797
1.160,94.33786
1.150,94.20702
1.140,94.07945
1.130,93.91874
1.120,93.71844
1.110,93.56052
1.100,93.41178
1.090,93.22341
1.080,92.98873
1.070,92.73971
1.060,92.49448
1.050,92.24922
1.040,91.94623
1.030,91.61072
1.020,91.25166
1.010,90.88332
1.000,90.44656
0.990,89.91113
0.980,89.33721
0.970,88.74057
0.960,88.07686
0.950,87.3481
0.940,86.52868
0.930,85.61923
0.920,84.60663
0.910,83.49945
0.900,82.32966
0.890,81.11244
0.880,79.36682
0.870,78.1717
0.860,77.19452
0.850,76.38739
0.840,75.83494
0.830,75.57383
0.820,75.60228
0.810,75.82467
0.800,76.2337
0.790,76.72559
0.780,77.28085
0.770,77.86717
0.760,78.40275
0.750,78.93814
0.740,79.42987
0.730,79.91451
0.720,80.36613
0.710,80.80336
0.700,81.22939
0.690,81.64507
0.680,82.05546
0.670,82.46741
0.660,82.87215
0.650,83.2882
0.640,83.71406
0.630,84.11509
0.620,84.55728
0.610,84.95972
0.600,85.41203
0.590,85.80413
0.580,86.24543
0.570,86.67798
0.560,87.09548
0.550,87.54318
0.540,87.97545
0.530,88.37606
0.520,88.76177
0.510,89.17204
0.500,89.57424
0.490,89.96743
0.480,90.33894
0.470,90.7007
0.460,91.01685
0.450,91.3691
0.440,91.66655
0.430,91.9448
0.420,92.1619
0.410,92.38531
0.400,92.56241
0.390,92.72529
0.380,92.80612
0.370,92.89916
0.360,92.90014
0.350,92.81035
0.340,92.61661
0.330,92.36918
0.320,91.97705
0.310,91.426
0.300,90.82423
0.290,90.30715
0.280,90.47026
0.270,89.6878
0.260,87.83799
0.250,85.20445
0.240,84.48405
0.230,81.06189
0.220,77.86905
