wavelength,transmission
19.999,96.55428
19.991,96.55749
19.980,96.56171
19.969,96.56586
19.961,96.56894
19.950,96.573
19.939,96.57699
19.931,96.57994
19.921,96.58383
19.910,96.58766
19.899,96.59143
19.891,96.59422
19.880,96.59789
19.869,96.6015
19.861,96.60418
19.850,96.60769
19.839,96.61115
19.831,96.61371
19.820,96.61707
19.810,96.62037
19.799,96.62363
19.791,96.62603
19.780,96.62919
19.769,96.63229
19.761,96.63459
19.750,96.6376
19.739,96.64057
19.731,96.64275
19.720,96.64563
19.710,96.64845
19.701,96.65053
19.691,96.65327
19.680,96.65595
19.669,96.65859
19.661,96.66053
19.650,96.66308
19.639,96.66559
19.631,96.66743
19.620,96.66985
19.610,96.67223
19.601,96.67398
19.591,96.67627
19.580,96.67852
19.569,96.68072
19.561,96.68235
19.550,96.68447
19.539,96.68655
19.531,96.68808
19.520,96.69009
19.509,96.69205
19.501,96.69349
19.490,96.69538
19.480,96.69722
19.471,96.69858
19.461,96.70035
19.450,96.70208
19.439,96.70378
19.431,96.70502
19.420,96.70664
19.409,96.70822
19.401,96.70938
19.390,96.7109
19.379,96.71237
19.371,96.71345
19.360,96.71486
19.350,96.71623
19.341,96.71724
19.331,96.71855
19.320,96.71982
19.312,96.72075
19.301,96.72195
19.290,96.72313
19.279,96.72426
19.271,96.72509
19.260,96.72617
19.249,96.72721
19.241,96.72797
19.230,96.72896
19.220,96.72991
19.211,96.7306
19.201,96.73149
19.190,96.73235
19.182,96.73298
19.171,96.73379
19.160,96.73456
19.149,96.7353
19.141,96.73584
19.130,96.73653
19.119,96.73719
19.111,96.73767
19.100,96.73827
19.090,96.73885
19.081,96.73927
19.071,96.7398
19.060,96.7403
19.052,96.74065
19.041,96.7411
19.030,96.74153
19.022,96.74183
19.011,96.74221
19.000,96.74256
18.989,96.74288
18.981,96.74311
18.970,96.74338
18.959,96.74364
18.951,96.74381
18.940,96.74402
18.930,96.7442
18.921,96.74433
18.911,96.74447
18.900,96.74459
18.892,96.74466
18.881,96.74474
18.870,96.74479
18.862,96.74482
18.851,96.74483
18.840,96.74483
18.832,96.74481
18.821,96.74476
18.810,96.74469
18.799,96.7446
18.791,96.74452
18.780,96.7444
18.770,96.74425
18.761,96.74413
18.751,96.74395
18.740,96.74375
18.732,96.74359
18.721,96.74335
18.710,96.7431
18.702,96.7429
18.691,96.74261
18.680,96.74231
18.672,96.74207
18.661,96.74173
18.650,96.74138
18.642,96.74111
18.631,96.74072
18.620,96.74032
18.612,96.74001
18.601,96.73958
18.590,96.73914
18.580,96.73868
18.571,96.73832
18.561,96.73783
18.550,96.73733
18.542,96.73694
18.531,96.73641
18.520,96.73587
18.512,96.73545
18.501,96.73488
18.490,96.7343
18.482,96.73385
18.471,96.73325
18.460,96.73263
18.452,96.73215
18.441,96.73151
18.430,96.73085
18.422,96.73035
18.411,96.72968
18.400,96.72899
18.392,96.72846
18.381,96.72775
18.370,96.72703
18.360,96.7263
18.351,96.72574
18.341,96.72499
18.330,96.72422
18.322,96.72365
18.311,96.72286
18.300,96.72207
18.292,96.72147
18.281,96.72066
18.270,96.71985
18.262,96.71923
18.251,96.71839
18.240,96.71755
18.232,96.71691
18.221,96.71605
18.210,96.71518
18.202,96.71453
18.191,96.71365
18.180,96.71276
18.172,96.71208
18.161,96.71118
18.150,96.71027
18.142,96.70958
18.131,96.70866
18.120,96.70773
18.112,96.70703
18.101,96.70609
18.091,96.70514
18.082,96.70442
18.072,96.70346
18.061,96.7025
18.050,96.70153
18.042,96.7008
18.031,96.69982
18.020,96.69883
18.012,96.69809
18.001,96.6971
17.990,96.6961
17.982,96.69534
17.971,96.69434
17.960,96.69333
17.952,96.69256
17.941,96.69155
17.930,96.69052
17.922,96.68975
17.911,96.68873
17.900,96.68769
17.892,96.68692
17.881,96.68588
17.870,96.68484
17.862,96.68406
17.851,96.68301
17.840,96.68196
17.832,96.68117
17.821,96.68012
17.810,96.67907
17.802,96.67827
17.791,96.67722
17.780,96.67616
17.772,96.67536
17.761,96.6743
17.751,96.67323
17.742,96.67243
17.731,96.67137
17.721,96.6703
17.712,96.6695
17.702,96.66843
17.691,96.66736
17.682,96.66656
17.672,96.66549
17.661,96.66442
17.653,96.66362
17.642,96.66255
17.631,96.66147
17.623,96.66067
17.612,96.6596
17.601,96.65853
17.593,96.65773
17.582,96.65666
17.571,96.6556
17.563,96.6548
17.552,96.65373
17.541,96.65266
17.533,96.65187
17.522,96.6508
17.511,96.64974
17.500,96.64868
17.492,96.64789
17.481,96.64683
17.470,96.64578
17.462,96.64499
17.451,96.64394
17.440,96.64289
17.432,96.6421
17.421,96.64106
17.410,96.64002
17.402,96.63924
17.391,96.6382
17.380,96.63716
17.372,96.63639
17.361,96.63536
17.350,96.63433
17.342,96.63357
17.331,96.63254
17.320,96.63153
17.312,96.63077
17.301,96.62975
17.290,96.62875
17.282,96.62799
17.271,96.62699
17.260,96.62599
17.252,96.62525
17.241,96.62426
17.230,96.62327
17.222,96.62253
17.211,96.62155
17.200,96.62058
17.192,96.61985
17.181,96.61888
17.170,96.61792
17.162,96.6172
17.151,96.61625
17.140,96.6153
17.132,96.61459
17.121,96.61365
17.110,96.61271
17.102,96.61201
17.091,96.61109
17.080,96.61016
17.072,96.60948
17.061,96.60856
17.050,96.60766
17.042,96.60698
17.031,96.60608
17.020,96.60519
17.012,96.60453
17.001,96.60365
16.990,96.60277
16.982,96.60212
16.971,96.60125
16.960,96.60039
16.952,96.59975
16.941,96.5989
16.930,96.59806
16.922,96.59744
16.911,96.5966
16.900,96.59578
16.892,96.59517
16.881,96.59435
16.873,96.59375
16.862,96.59295
16.851,96.59215
16.843,96.59156
16.832,96.59078
16.821,96.59
16.813,96.58942
16.802,96.58866
16.791,96.5879
16.783,96.58734
16.772,96.58659
16.761,96.58585
16.753,96.5853
16.742,96.58458
16.731,96.58386
16.723,96.58333
16.712,96.58262
16.701,96.58192
16.693,96.58141
16.682,96.58072
16.671,96.58004
16.662,96.57948
16.652,96.57886
16.642,96.57827
16.632,96.57766
16.622,96.57708
16.612,96.57652
16.602,96.57592
16.592,96.57537
16.582,96.57479
16.572,96.57424
16.562,96.57371
16.552,96.57314
16.542,96.57262
16.532,96.5721
16.522,96.57156
16.512,96.57105
16.502,96.57055
16.492,96.57006
16.482,96.56954
16.472,96.56906
16.462,96.56859
16.452,96.56812
16.442,96.56766
16.432,96.56718
16.422,96.56673
16.412,96.56629
16.402,96.56585
16.392,96.56542
16.382,96.565
16.372,96.56458
16.362,96.56418
16.352,96.56377
16.342,96.56338
16.332,96.56297
16.322,96.56259
16.312,96.56222
16.302,96.56185
16.292,96.56151
16.282,96.56116
16.272,96.56081
16.262,96.56047
16.252,96.56014
16.242,96.55981
16.232,96.5595
16.222,96.55919
16.212,96.55888
16.202,96.55859
16.192,96.55831
16.182,96.55803
16.172,96.55776
16.162,96.55749
16.152,96.55723
16.142,96.55699
16.132,96.55675
16.122,96.55651
16.112,96.55628
16.102,96.55607
16.092,96.55585
16.082,96.55564
16.072,96.55544
16.062,96.55526
16.052,96.55508
16.042,96.55491
16.032,96.55474
16.022,96.55457
16.012,96.55443
16.002,96.55428
15.992,96.55414
15.982,96.55401
15.972,96.55389
15.962,96.55377
15.952,96.55366
15.942,96.55357
15.932,96.55347
15.922,96.55339
15.912,96.55331
15.902,96.55324
15.892,96.55318
15.882,96.55313
15.872,96.55308
15.862,96.55304
15.853,96.55301
15.842,96.55298
15.832,96.55296
15.822,96.55295
15.812,96.55295
15.802,96.55296
15.792,96.55297
15.782,96.55299
15.772,96.55302
15.762,96.55305
15.752,96.55309
15.742,96.55314
15.733,96.5532
15.722,96.55327
15.712,96.55334
15.702,96.55342
15.693,96.5535
15.682,96.5536
15.672,96.5537
15.662,96.55381
15.652,96.55392
15.643,96.55405
15.633,96.55418
15.622,96.55432
15.612,96.55447
15.602,96.55462
15.592,96.55478
15.582,96.55494
15.573,96.55512
15.563,96.5553
15.553,96.55549
15.543,96.55568
15.533,96.55589
15.523,96.5561
15.513,96.55632
15.503,96.55654
15.493,96.55677
15.483,96.55701
15.473,96.55726
15.463,96.55752
15.453,96.55778
15.443,96.55805
15.433,96.55832
15.423,96.55861
15.413,96.5589
15.402,96.5592
15.392,96.5595
15.382,96.55981
15.373,96.56012
15.363,96.56044
15.353,96.56078
15.343,96.56112
15.332,96.56147
15.322,96.56182
15.313,96.56217
15.303,96.56254
15.293,96.56291
15.282,96.5633
15.273,96.56367
15.263,96.56407
15.253,96.56447
15.242,96.56489
15.233,96.56528
15.223,96.56571
15.213,96.56614
15.202,96.56658
15.193,96.56701
15.183,96.56746
15.172,96.56793
15.163,96.56837
15.153,96.56884
15.143,96.5693
15.133,96.56979
15.123,96.57029
15.113,96.57076
15.103,96.57127
15.093,96.57176
15.083,96.57228
15.072,96.57282
15.063,96.57332
15.053,96.57387
15.043,96.57439
15.033,96.57495
15.023,96.57548
15.013,96.57605
15.003,96.5766
14.993,96.57718
14.983,96.57774
14.973,96.57834
14.963,96.57891
14.953,96.57949
14.943,96.5801
14.933,96.58069
14.923,96.58132
14.913,96.58193
14.903,96.58253
14.893,96.58318
14.883,96.5838
14.873,96.58447
14.863,96.5851
14.853,96.58574
14.843,96.58642
14.833,96.58707
14.823,96.58773
14.813,96.58843
14.803,96.5891
14.793,96.58977
14.783,96.59045
14.773,96.59117
14.763,96.59187
14.753,96.59256
14.743,96.59327
14.733,96.59402
14.723,96.59473
14.713,96.59545
14.703,96.59618
14.693,96.59691
14.683,96.59769
14.673,96.59843
14.663,96.59918
14.653,96.59993
14.643,96.60069
14.633,96.60145
14.623,96.60227
14.613,96.60304
14.603,96.60382
14.593,96.60461
14.583,96.6054
14.573,96.6062
14.563,96.607
14.553,96.60781
14.543,96.60862
14.533,96.60944
14.523,96.61026
14.513,96.61109
14.503,96.61192
14.493,96.61276
14.483,96.6136
14.473,96.61445
14.463,96.61531
14.453,96.61616
14.443,96.61703
14.433,96.6179
14.423,96.61877
14.413,96.61965
14.403,96.62053
14.393,96.62142
14.383,96.62231
14.373,96.62321
14.363,96.62411
14.353,96.62502
14.343,96.62593
14.333,96.62684
14.323,96.62771
14.313,96.62863
14.303,96.62956
14.293,96.6305
14.283,96.63144
14.273,96.63238
14.263,96.63327
14.253,96.63422
14.243,96.63518
14.233,96.63614
14.223,96.6371
14.213,96.63802
14.203,96.63899
14.193,96.63997
14.183,96.64095
14.174,96.64188
14.163,96.64287
14.153,96.64386
14.143,96.64486
14.133,96.6458
14.123,96.64681
14.113,96.64782
14.104,96.64877
14.093,96.64979
14.083,96.65081
14.074,96.65177
14.063,96.6528
14.053,96.65383
14.044,96.65481
14.033,96.65585
14.023,96.65689
14.014,96.65788
14.003,96.65893
13.993,96.65998
13.983,96.66098
13.973,96.66204
13.964,96.66304
13.953,96.66411
13.944,96.66512
13.933,96.66619
13.923,96.66727
13.913,96.66829
13.903,96.66937
13.893,96.67039
13.883,96.67148
13.874,96.67251
13.863,96.67361
13.854,96.67465
13.843,96.67575
13.834,96.67679
13.823,96.6779
13.813,96.67894
13.803,96.68006
13.793,96.68111
13.784,96.68216
13.773,96.68329
13.764,96.68435
13.753,96.68547
13.744,96.68654
13.733,96.68767
13.723,96.68874
13.714,96.68981
13.703,96.69095
13.694,96.69203
13.684,96.69311
13.673,96.69426
13.664,96.69534
13.653,96.69649
13.643,96.69758
13.634,96.69867
13.624,96.69976
13.613,96.70092
13.604,96.70202
13.594,96.70312
13.583,96.70428
13.574,96.70539
13.564,96.70649
13.553,96.70766
13.543,96.70877
13.534,96.70988
13.524,96.71099
13.513,96.71217
13.504,96.71328
13.494,96.7144
13.484,96.71552
13.473,96.7167
13.463,96.71783
13.454,96.71895
13.444,96.72007
13.434,96.72119
13.423,96.72239
13.413,96.72352
13.404,96.72465
13.394,96.72578
13.384,96.72691
13.374,96.72804
13.364,96.72917
13.353,96.73038
13.344,96.73151
13.334,96.73265
13.324,96.73379
13.314,96.73493
13.304,96.73607
13.294,96.73721
13.284,96.73835
13.274,96.73949
13.263,96.74071
13.253,96.74185
13.244,96.743
13.234,96.74414
13.224,96.74529
13.214,96.74644
13.204,96.74759
13.194,96.74874
13.184,96.74988
13.174,96.75103
13.164,96.75218
13.154,96.75334
13.144,96.75449
13.134,96.75564
13.124,96.75679
13.114,96.75794
13.104,96.75909
13.094,96.76025
13.084,96.7614
13.074,96.76255
13.064,96.76371
13.054,96.76486
13.044,96.76594
13.034,96.7671
13.024,96.76825
13.014,96.7694
13.004,96.77056
12.994,96.77171
12.984,96.77287
12.974,96.77402
12.964,96.77517
12.954,96.77633
12.944,96.77741
12.934,96.77856
12.924,96.77971
12.914,96.78086
12.904,96.78202
12.894,96.78317
12.884,96.78425
12.874,96.7854
12.864,96.78655
12.854,96.7877
12.844,96.78884
12.834,96.78999
12.824,96.79107
12.814,96.79222
12.804,96.79336
12.794,96.79451
12.784,96.79558
12.774,96.79673
12.764,96.79787
12.754,96.79901
12.744,96.80008
12.734,96.80122
12.724,96.80236
12.714,96.8035
12.704,96.80457
12.694,96.8057
12.684,96.80684
12.674,96.8079
12.664,96.80904
12.654,96.81017
12.644,96.8113
12.634,96.81236
12.624,96.81349
12.614,96.81462
12.604,96.81567
12.594,96.8168
12.584,96.81785
12.574,96.81897
12.564,96.82009
12.554,96.82114
12.544,96.82226
12.534,96.82338
12.524,96.82442
12.514,96.82554
12.504,96.82658
12.494,96.82769
12.484,96.8288
12.474,96.82983
12.464,96.83094
12.454,96.83197
12.444,96.83308
12.435,96.83411
12.424,96.8352
12.414,96.8363
12.404,96.83733
12.394,96.83842
12.384,96.83944
12.374,96.84053
12.364,96.84155
12.354,96.84263
12.344,96.84365
12.334,96.84473
12.324,96.84574
12.314,96.84681
12.304,96.84782
12.294,96.84889
12.284,96.84989
12.274,96.85096
12.264,96.85196
12.254,96.85302
12.244,96.85402
12.235,96.85501
12.224,96.85606
12.215,96.85705
12.204,96.8581
12.194,96.85908
12.184,96.86013
12.174,96.86111
12.165,96.86208
12.154,96.86312
12.145,96.86409
12.134,96.86513
12.124,96.86609
12.115,96.86705
12.104,96.86808
12.095,96.86904
12.084,96.87006
12.074,96.87101
12.065,96.87196
12.054,96.87297
12.044,96.87392
12.035,96.87486
12.024,96.87586
12.014,96.8768
12.005,96.87774
11.994,96.87873
11.984,96.87966
11.975,96.88059
11.964,96.88157
11.954,96.88249
11.945,96.88341
11.935,96.88433
11.924,96.8853
11.914,96.88621
11.905,96.88711
11.894,96.88808
11.884,96.88898
11.875,96.88988
11.865,96.89077
11.854,96.89172
11.844,96.89261
11.835,96.89349
11.825,96.89438
11.815,96.89526
11.804,96.89619
11.794,96.89706
11.785,96.89793
11.775,96.8988
11.764,96.89972
11.754,96.90058
11.745,96.90144
11.735,96.90229
11.725,96.90314
11.715,96.90399
11.704,96.90489
11.694,96.90573
11.685,96.90657
11.675,96.9074
11.665,96.90823
11.655,96.90906
11.644,96.90993
11.634,96.91075
11.625,96.91157
11.615,96.91238
11.605,96.91319
11.595,96.914
11.585,96.9148
11.575,96.9156
11.565,96.9164
11.554,96.91724
11.544,96.91803
11.535,96.91882
11.525,96.9196
11.515,96.92038
11.505,96.92115
11.495,96.92192
11.485,96.92269
11.475,96.92345
11.465,96.92421
11.455,96.92497
11.445,96.92572
11.435,96.92647
11.425,96.92721
11.415,96.92795
11.405,96.92869
11.395,96.92943
11.385,96.93016
11.375,96.93088
11.365,96.9316
11.355,96.93232
11.345,96.93304
11.335,96.93375
11.325,96.93446
11.315,96.93516
11.305,96.93586
11.295,96.93655
11.285,96.93725
11.275,96.93793
11.265,96.93862
11.255,96.9393
11.245,96.93997
11.235,96.94064
11.225,96.94131
11.215,96.94198
11.205,96.94264
11.195,96.94329
11.185,96.94395
11.175,96.94459
11.165,96.94524
11.155,96.94588
11.145,96.94647
11.135,96.9471
11.125,96.94773
11.115,96.94836
11.105,96.94898
11.095,96.94959
11.085,96.95021
11.075,96.95081
11.065,96.95142
11.055,96.95198
11.045,96.95257
11.035,96.95317
11.025,96.95375
11.015,96.95434
11.005,96.95492
10.995,96.95545
10.985,96.95602
10.975,96.95659
10.965,96.95715
10.955,96.95771
10.945,96.95827
10.935,96.95878
10.925,96.95933
10.915,96.95987
10.905,96.96041
10.895,96.96094
10.885,96.96144
10.875,96.96197
10.865,96.96249
10.855,96.96301
10.845,96.96352
10.835,96.96399
10.825,96.9645
10.815,96.965
10.805,96.9655
10.795,96.96596
10.785,96.96645
10.775,96.96693
10.765,96.96741
10.755,96.96785
10.745,96.96833
10.735,96.96879
10.725,96.96923
10.715,96.96969
10.705,96.97014
10.695,96.97059
10.685,96.97101
10.675,96.97145
10.665,96.97189
10.655,96.9723
10.645,96.97273
10.635,96.97315
10.626,96.97355
10.615,96.97397
10.605,96.97438
10.595,96.97479
10.585,96.97517
10.575,96.97557
10.566,96.97594
10.555,96.97633
10.545,96.97672
10.536,96.97708
10.525,96.97746
10.515,96.97784
10.506,96.97819
10.495,96.97855
10.485,96.97892
10.475,96.97926
10.465,96.97961
10.456,96.97994
10.445,96.98029
10.435,96.98063
10.426,96.98095
10.415,96.98128
10.406,96.98159
10.395,96.98192
10.385,96.98224
10.375,96.98254
10.365,96.98286
10.356,96.98315
10.345,96.98346
10.336,96.98374
10.325,96.98404
10.315,96.98433
10.306,96.98461
10.295,96.98489
10.286,96.98516
10.275,96.98544
10.266,96.98569
10.255,96.98597
10.246,96.98622
10.235,96.98648
10.226,96.98672
10.215,96.98698
10.206,96.98721
10.195,96.98746
10.185,96.9877
10.175,96.98793
10.165,96.98817
10.155,96.98838
10.145,96.98861
10.135,96.98882
10.126,96.98903
10.115,96.98924
10.106,96.98944
10.095,96.98965
10.086,96.98984
10.075,96.99005
10.066,96.99023
10.055,96.99043
10.046,96.9906
10.035,96.99079
10.026,96.99096
10.015,96.99114
10.006,96.99131
9.996,96.99147
9.985,96.99164
9.976,96.99179
9.965,96.99195
9.956,96.9921
9.945,96.99225
9.936,96.99239
9.926,96.99253
9.915,96.99267
9.906,96.99281
9.895,96.99294
9.886,96.99307
9.876,96.99319
9.865,96.99331
9.856,96.99343
9.845,96.99355
9.836,96.99365
9.826,96.99376
9.815,96.99387
9.806,96.99397
9.796,96.99406
9.786,96.99416
9.776,96.99425
9.766,96.99434
9.756,96.99442
9.746,96.9945
9.735,96.99459
9.726,96.99466
9.716,96.99473
9.705,96.9948
9.696,96.99487
9.686,96.99493
9.675,96.99499
9.666,96.99505
9.656,96.9951
9.646,96.99515
9.636,96.9952
9.626,96.99525
9.616,96.99529
9.606,96.99533
9.596,96.99537
9.586,96.9954
9.575,96.99543
9.566,96.99546
9.556,96.99549
9.546,96.99551
9.536,96.99553
9.526,96.99555
9.516,96.99556
9.506,96.99557
9.496,96.99558
9.486,96.99559
9.476,96.9956
9.466,96.9956
9.456,96.9956
9.446,96.99559
9.436,96.99559
9.426,96.99558
9.416,96.99557
9.406,96.99555
9.396,96.99554
9.386,96.99552
9.376,96.9955
9.366,96.99548
9.356,96.99545
9.346,96.99542
9.336,96.99539
9.326,96.99536
9.316,96.99533
9.306,96.99529
9.296,96.99525
9.286,96.99521
9.276,96.99517
9.266,96.99512
9.256,96.99507
9.246,96.99502
9.236,96.99497
9.226,96.99492
9.216,96.99486
9.206,96.99481
9.196,96.99475
9.186,96.99469
9.176,96.99462
9.166,96.99455
9.156,96.99449
9.146,96.99442
9.136,96.99435
9.126,96.99428
9.116,96.99421
9.106,96.99413
9.096,96.99405
9.086,96.99397
9.076,96.99389
9.066,96.99381
9.056,96.99372
9.046,96.99364
9.036,96.99355
9.026,96.99347
9.016,96.99338
9.006,96.99328
8.996,96.99319
8.986,96.99309
8.976,96.993
8.966,96.9929
8.956,96.9928
8.946,96.99271
8.936,96.99261
8.926,96.9925
8.916,96.9924
8.906,96.9923
8.897,96.99219
8.886,96.99208
8.876,96.99197
8.866,96.99186
8.856,96.99175
8.846,96.99164
8.836,96.99153
8.826,96.99142
8.816,96.9913
8.806,96.99119
8.796,96.99107
8.786,96.99096
8.776,96.99084
8.766,96.99072
8.756,96.99061
8.746,96.99049
8.736,96.99037
8.726,96.99025
8.716,96.99012
8.706,96.99
8.696,96.98988
8.686,96.98976
8.676,96.98963
8.667,96.98951
8.657,96.98938
8.647,96.98926
8.637,96.98913
8.627,96.98901
8.617,96.98888
8.606,96.98875
8.596,96.98863
8.586,96.9885
8.576,96.98837
8.566,96.98824
8.556,96.98812
8.546,96.98799
8.536,96.98786
8.526,96.98773
8.516,96.9876
8.506,96.98747
8.496,96.98734
8.486,96.98722
8.476,96.98709
8.466,96.98696
8.456,96.98683
8.446,96.9867
8.436,96.98657
8.427,96.98646
8.417,96.98633
8.407,96.9862
8.397,96.98607
8.387,96.98595
8.377,96.98582
8.366,96.98569
8.356,96.98557
8.346,96.98544
8.336,96.98532
8.326,96.98519
8.316,96.98507
8.307,96.98496
8.297,96.98483
8.287,96.98471
8.277,96.98459
8.267,96.98447
8.256,96.98435
8.246,96.98423
8.236,96.98411
8.226,96.98399
8.217,96.98389
8.207,96.98377
8.197,96.98366
8.187,96.98354
8.177,96.98343
8.166,96.98332
8.156,96.9832
8.147,96.9831
8.137,96.98299
8.127,96.98289
8.117,96.98278
8.107,96.98267
8.096,96.98257
8.086,96.98247
8.077,96.98237
8.067,96.98227
8.057,96.98217
8.047,96.98207
8.036,96.98198
8.026,96.98188
8.017,96.9818
8.007,96.9817
7.997,96.98161
7.987,96.98152
7.976,96.98144
7.967,96.98136
7.957,96.98127
7.947,96.98119
7.937,96.98111
7.927,96.98103
7.916,96.98095
7.907,96.98088
7.897,96.98081
7.887,96.98074
7.877,96.98067
7.867,96.9806
7.857,96.98054
7.847,96.98047
7.837,96.98041
7.826,96.98035
7.817,96.9803
7.807,96.98024
7.797,96.98019
7.787,96.98014
7.777,96.98009
7.767,96.98004
7.757,96.98
7.747,96.97996
7.737,96.97992
7.727,96.97988
7.717,96.97984
7.707,96.97981
7.697,96.97978
7.687,96.97975
7.677,96.97973
7.667,96.9797
7.657,96.97969
7.647,96.97967
7.637,96.97965
7.627,96.97964
7.617,96.97963
7.607,96.97962
7.597,96.97962
7.587,96.97961
7.577,96.97961
7.567,96.97962
7.557,96.97962
7.547,96.97963
7.537,96.97964
7.527,96.97966
7.517,96.97968
7.507,96.9797
7.497,96.97972
7.487,96.97974
7.477,96.97977
7.467,96.97981
7.457,96.97984
7.447,96.97988
7.437,96.97992
7.427,96.97997
7.417,96.98001
7.407,96.98006
7.397,96.98012
7.387,96.98017
7.377,96.98024
7.367,96.9803
7.357,96.98037
7.347,96.98044
7.337,96.98051
7.327,96.98059
7.317,96.98067
7.307,96.98075
7.297,96.98084
7.287,96.98093
7.277,96.98103
7.267,96.98112
7.257,96.98122
7.247,96.98132
7.237,96.98144
7.227,96.98155
7.217,96.98166
7.207,96.98178
7.197,96.98191
7.187,96.98203
7.177,96.98216
7.167,96.98229
7.157,96.98243
7.147,96.98258
7.137,96.98272
7.127,96.98287
7.117,96.98303
7.107,96.98318
7.097,96.98335
7.087,96.9835
7.077,96.98368
7.067,96.98385
7.057,96.98402
7.047,96.98421
7.037,96.98438
7.027,96.98458
7.017,96.98478
7.007,96.98497
6.997,96.98517
6.987,96.98537
6.977,96.98558
6.968,96.98579
6.957,96.98601
6.947,96.98624
6.937,96.98646
6.927,96.98669
6.917,96.98692
6.907,96.98716
6.898,96.9874
6.887,96.98765
6.877,96.98791
6.867,96.98816
6.857,96.98842
6.847,96.98868
6.837,96.98895
6.828,96.98922
6.817,96.9895
6.808,96.98977
6.797,96.99007
6.788,96.99035
6.777,96.99065
6.767,96.99096
6.757,96.99125
6.747,96.99157
6.737,96.99187
6.727,96.9922
6.717,96.99251
6.707,96.99285
6.698,96.99317
6.687,96.99351
6.678,96.99384
6.667,96.9942
6.658,96.99453
6.647,96.9949
6.638,96.99525
6.627,96.99562
6.618,96.99598
6.607,96.99636
6.598,96.99673
6.587,96.99712
6.578,96.99749
6.567,96.9979
6.558,96.99828
6.547,96.9987
6.538,96.99909
6.527,96.99951
6.518,96.99991
6.507,97.00035
6.498,97.00075
6.487,97.0012
6.478,97.00162
6.467,97.00207
6.458,97.0025
6.447,97.00297
6.438,97.0034
6.427,97.00388
6.418,97.00433
6.408,97.00478
6.397,97.00527
6.388,97.00573
6.377,97.00623
6.368,97.0067
6.357,97.00721
6.348,97.00769
6.337,97.00821
6.328,97.0087
6.317,97.00923
6.308,97.00972
6.298,97.01023
6.288,97.01077
6.278,97.01129
6.267,97.01184
6.258,97.01236
6.247,97.01293
6.238,97.01346
6.228,97.014
6.218,97.01458
6.208,97.01512
6.197,97.01572
6.188,97.01627
6.177,97.01687
6.168,97.01744
6.158,97.018
6.148,97.01862
6.138,97.0192
6.127,97.01983
6.118,97.02041
6.108,97.02101
6.098,97.02165
6.088,97.02225
6.078,97.0229
6.068,97.02351
6.057,97.02418
6.048,97.0248
6.038,97.02542
6.028,97.0261
6.018,97.02673
6.008,97.02737
5.998,97.02807
5.988,97.02871
5.978,97.02942
5.968,97.03007
5.958,97.03073
5.948,97.03145
5.938,97.03212
5.927,97.03285
5.918,97.03353
5.908,97.03421
5.898,97.03495
5.888,97.03565
5.878,97.03635
5.868,97.0371
5.858,97.03781
5.847,97.03857
5.838,97.03929
5.828,97.04001
5.818,97.04079
5.808,97.04152
5.798,97.04225
5.788,97.04304
5.778,97.04379
5.768,97.04453
5.758,97.04534
5.748,97.04609
5.738,97.04685
5.728,97.04767
5.718,97.04844
5.708,97.04921
5.698,97.05004
5.688,97.05082
5.678,97.05161
5.668,97.05245
5.658,97.05325
5.648,97.05404
5.638,97.0549
5.628,97.05571
5.618,97.05651
5.608,97.05739
5.598,97.0582
5.588,97.05902
5.578,97.05991
5.568,97.06073
5.558,97.06156
5.548,97.06246
5.538,97.0633
5.528,97.06414
5.518,97.06505
5.508,97.0659
5.498,97.06675
5.488,97.06761
5.478,97.06853
5.468,97.0694
5.458,97.07026
5.448,97.0712
5.438,97.07207
5.428,97.07295
5.418,97.0739
5.408,97.07478
5.398,97.07567
5.388,97.07656
5.378,97.07752
5.368,97.07841
5.358,97.07931
5.348,97.08028
5.338,97.08119
5.328,97.0821
5.318,97.08301
5.308,97.08399
5.298,97.08491
5.288,97.08583
5.279,97.08675
5.268,97.08775
5.258,97.08867
5.248,97.0896
5.238,97.09061
5.228,97.09154
5.218,97.09248
5.208,97.09342
5.198,97.09444
5.188,97.09538
5.178,97.09633
5.169,97.09728
5.158,97.0983
5.148,97.09926
5.138,97.10021
5.129,97.10117
5.118,97.1022
5.108,97.10316
5.098,97.10413
5.089,97.10509
5.078,97.10613
5.068,97.1071
5.058,97.10807
5.049,97.10904
5.038,97.11009
5.028,97.11107
5.018,97.11204
5.009,97.11302
4.998,97.11404
4.988,97.11504
4.978,97.11602
4.968,97.11702
4.958,97.11803
4.948,97.11903
4.938,97.12004
4.928,97.12103
4.918,97.12204
4.908,97.12303
4.898,97.12404
4.889,97.12504
4.878,97.12606
4.868,97.12705
4.858,97.12807
4.848,97.12907
4.838,97.13007
4.829,97.13107
4.818,97.1321
4.808,97.1331
4.798,97.1341
4.788,97.1351
4.778,97.13611
4.768,97.13711
4.758,97.13812
4.749,97.1391
4.739,97.14011
4.729,97.14112
4.718,97.14212
4.709,97.1431
4.699,97.14411
4.688,97.14512
4.679,97.1461
4.668,97.14711
4.659,97.14809
4.648,97.14909
4.639,97.15007
4.628,97.15108
4.619,97.15206
4.609,97.15303
4.599,97.15401
4.588,97.15501
4.579,97.15599
4.569,97.15696
4.559,97.15793
4.549,97.1589
4.539,97.15987
4.529,97.16084
4.519,97.16181
4.509,97.16277
4.499,97.16373
4.489,97.16469
4.479,97.16563
4.469,97.16658
4.459,97.16754
4.449,97.16849
4.439,97.16941
4.429,97.17036
4.419,97.17128
4.409,97.17221
4.399,97.17313
4.389,97.17406
4.379,97.17497
4.369,97.17589
4.359,97.17679
4.349,97.17769
4.339,97.1786
4.329,97.17949
4.319,97.18038
4.309,97.18126
4.299,97.18213
4.289,97.18303
4.279,97.18389
4.269,97.18476
4.259,97.18561
4.249,97.18647
4.239,97.18731
4.229,97.18816
4.219,97.18897
4.209,97.1898
4.199,97.19063
4.189,97.19145
4.179,97.19227
4.169,97.19305
4.159,97.19386
4.149,97.19465
4.139,97.19542
4.129,97.19621
4.119,97.19698
4.109,97.19773
4.099,97.1985
4.089,97.19923
4.079,97.19996
4.069,97.2007
4.059,97.20142
4.049,97.20214
4.039,97.20284
4.029,97.20353
4.019,97.20422
4.009,97.20491
3.999,97.20558
3.989,97.20623
3.979,97.20688
3.969,97.20752
3.959,97.20816
3.949,97.20878
3.939,97.20941
3.929,97.21001
3.919,97.21059
3.909,97.21117
3.899,97.21175
3.889,97.21231
3.879,97.21287
3.869,97.21341
3.859,97.21394
3.849,97.21445
3.839,97.21496
3.829,97.21546
3.819,97.21595
3.809,97.21641
3.799,97.21688
3.789,97.21733
3.779,97.21776
3.769,97.21819
3.759,97.21859
3.749,97.219
3.739,97.21938
3.729,97.21975
3.719,97.22011
3.709,97.22046
3.699,97.22079
3.689,97.2211
3.679,97.22141
3.669,97.2217
3.659,97.22197
3.649,97.22223
3.639,97.22248
3.629,97.22271
3.619,97.22292
3.609,97.22312
3.599,97.22331
3.589,97.22348
3.579,97.22363
3.569,97.22377
3.559,97.22389
3.549,97.224
3.539,97.22408
3.529,97.22415
3.519,97.22421
3.509,97.22425
3.499,97.22427
3.489,97.22427
3.479,97.22425
3.469,97.22422
3.459,97.22417
3.449,97.2241
3.439,97.22401
3.429,97.2239
3.419,97.22378
3.409,97.22363
3.399,97.22347
3.389,97.22328
3.379,97.22308
3.369,97.22286
3.359,97.22262
3.349,97.22235
3.339,97.22206
3.329,97.22176
3.319,97.22143
3.309,97.22108
3.299,97.22072
3.289,97.22032
3.279,97.21991
3.269,97.21947
3.259,97.21901
3.249,97.21854
3.239,97.21803
3.229,97.2175
3.219,97.21696
3.209,97.21637
3.199,97.21578
3.189,97.21516
3.179,97.21452
3.169,97.21386
3.159,97.21315
3.149,97.21243
3.139,97.21169
3.129,97.21092
3.119,97.21013
3.109,97.20931
3.099,97.20846
3.089,97.20759
3.079,97.20669
3.069,97.20576
3.059,97.20481
3.049,97.20382
3.039,97.20281
3.029,97.20177
3.019,97.20071
3.009,97.19961
3.000,97.19851
2.990,97.19736
2.980,97.19617
2.969,97.19496
2.959,97.19371
2.949,97.19243
2.940,97.19116
2.929,97.18982
2.919,97.18845
2.910,97.18709
2.900,97.18565
2.889,97.18419
2.880,97.18273
2.870,97.18119
2.859,97.17963
2.850,97.17807
2.839,97.17644
2.830,97.17481
2.820,97.17311
2.810,97.17142
2.800,97.16965
2.790,97.16789
2.780,97.16604
2.770,97.16421
2.760,97.1623
2.750,97.1604
2.739,97.1584
2.730,97.15643
2.720,97.25442
2.710,97.35232
2.700,97.45023
2.690,97.44811
2.680,97.49589
2.670,97.54369
2.660,97.59145
2.650,97.63911
2.640,97.68679
2.630,97.88444
2.620,97.98204
2.610,98.07961
2.600,98.21178
2.590,98.65382
2.580,98.39315
2.570,98.49934
2.560,98.69085
2.550,98.52033
2.540,98.48124
2.530,98.54017
2.520,98.39511
2.510,98.51442
2.500,98.56909
2.490,98.54746
2.480,98.61078
2.470,98.66552
2.460,98.66967
2.450,98.76928
2.440,98.80649
2.430,98.80815
2.420,98.73094
2.410,98.8156
2.400,98.85428
2.390,98.83008
2.380,98.78434
2.370,98.80091
2.360,98.71373
2.350,98.49827
2.340,98.50159
2.330,98.60385
2.320,98.6268
2.310,98.659
2.300,98.5843
2.290,98.52019
2.280,98.53709
2.270,98.57631
2.260,98.62741
2.250,98.6584
2.240,98.66729
2.230,98.64319
2.220,98.67292
2.210,98.58392
2.200,98.6127
2.190,97.8161
2.180,98.0515
2.170,98.47648
2.160,98.48066
2.150,98.41537
2.140,98.41272
2.130,98.38794
2.120,98.40523
2.110,98.45875
2.100,98.48918
2.090,98.50789
2.080,98.57123
2.070,98.60126
2.060,98.63635
2.050,98.63663
2.040,98.67751
2.030,98.66039
2.020,98.64289
2.010,98.60667
2.000,98.57227
1.990,98.56778
1.980,98.5289
1.970,98.52156
1.960,98.51662
1.950,98.52763
1.940,98.53926
1.930,98.55528
1.920,98.57394
1.910,98.55063
1.900,98.55027
1.890,98.52257
1.880,98.49114
1.870,98.45942
1.860,98.43205
1.850,98.41274
1.840,98.35516
1.830,98.35715
1.820,98.38179
1.810,98.38171
1.800,98.39527
1.790,98.41756
1.780,98.41678
1.770,98.44108
1.760,98.4387
1.750,98.44223
1.740,98.43662
1.730,98.43636
1.720,98.40715
1.710,98.39668
1.700,98.3967
1.690,98.38245
1.680,98.38288
1.670,98.38501
1.660,98.38116
1.650,98.34575
1.640,98.31972
1.630,98.31618
1.620,98.28987
1.610,98.26905
1.600,98.244
1.590,98.22246
1.580,98.20838
1.570,98.21143
1.560,98.20471
1.550,98.17832
1.540,98.15759
1.530,98.16414
1.520,98.1707
1.510,98.17027
1.500,98.18643
1.490,98.1823
1.480,98.13973
1.470,98.13016
1.460,98.13683
1.450,98.10411
1.440,98.06107
1.430,98.06944
1.420,98.06479
1.410,98.0472
1.400,98.0234
1.390,98.00407
1.380,97.94511
1.370,97.94312
1.360,97.93227
1.350,97.91632
1.340,97.90606
1.330,97.89696
1.320,97.87714
1.310,97.84039
1.300,97.83501
1.290,97.83182
1.280,97.79379
1.270,97.73535
1.260,97.7117
1.250,97.69103
1.240,97.66889
1.230,97.65738
1.220,97.62917
1.210,97.61907
1.200,97.57646
1.190,97.56252
1.180,97.54668
1.170,97.49938
1.160,97.45269
1.150,97.40802
1.140,97.37106
1.130,97.34799
1.120,97.31379
1.110,97.27807
1.100,97.24537
1.090,97.21751
1.080,97.19876
1.070,97.18706
1.060,97.14452
1.050,97.09087
1.040,97.06372
1.030,97.03826
1.020,97.00432
1.010,96.97849
1.000,96.95703
0.990,96.9399
0.980,96.90142
0.970,96.86901
0.960,96.82785
0.950,96.79117
0.940,96.77466
0.930,96.74643
0.920,96.7383
0.910,96.73345
0.900,96.7152
0.890,96.70566
0.880,95.69437
0.870,96.39724
0.860,96.84139
0.850,96.75521
0.840,96.96701
0.830,96.90085
0.820,97.03262
0.810,96.78127
0.800,96.78582
0.790,98.6507
0.780,98.21368
0.770,98.23112
0.760,98.16483
0.750,98.21165
0.740,98.70107
0.730,98.02679
0.720,98.06511
0.710,97.9456
0.700,98.23487
0.690,98.38011
0.680,98.11596
0.670,98.29128
0.660,98.69131
0.650,99.08437
0.640,99.14327
0.630,99.31481
0.620,99.28222
0.610,98.92773
0.600,98.63379
0.590,98.72285
0.580,98.81083
0.570,98.89613
0.560,98.97537
0.550,99.40575
0.540,99.08871
0.530,98.8199
0.520,98.80747
0.510,99.185
0.500,98.94966
0.490,99.32731
0.480,99.67304
0.470,99.54109
0.460,99.20426
0.450,98.76272
0.440,98.2024
0.430,97.2415
0.420,95.58847
0.410,93.26443
0.400,90.97469
0.390,89.84245
0.380,89.79546
0.370,89.7214
0.360,88.47677
0.350,82.498
0.340,61.19911
0.330,11.40352
0.320,12.00009
0.310,16.72859
0.300,14.95514
